trial_index,trial_time,response_arrow_start_angle,motion_direction,motion_coherence,estimate_x,estimate_y,reaction_time,raw_response_time,prior_std,prior_mean,subject_id,experiment_name,experiment_id,session_id,run_id
1,0,NaN,225,0.12,-1.74968470939291,-1.78566609916766,NaN,NaN,10,225,1,data01_direction4priors,11,1,1
2,2.73073000001023,NaN,225,0.12,-1.81969274663383,-1.71426903018407,NaN,NaN,10,225,1,data01_direction4priors,11,1,1
3,4.91395000001648,NaN,235,0.06,-1.56267442609889,-1.951422209061,NaN,NaN,10,225,1,data01_direction4priors,11,1,1
4,6.99729600001592,NaN,225,0.06,-1.60138774396834,-1.91978053263074,NaN,NaN,10,225,1,data01_direction4priors,11,1,1
5,9.0971300000092,NaN,215,0.24,-1.63946052809175,-1.88737096958417,NaN,NaN,10,225,1,data01_direction4priors,11,1,1
6,11.0303940000013,NaN,205,0.24,-1.81969274663383,-1.71426903018407,NaN,NaN,10,225,1,data01_direction4priors,11,1,1
7,13.0803690000321,NaN,235,0.06,-1.7136238429726,-1.82030033917368,NaN,NaN,10,225,1,data01_direction4priors,11,1,1
8,15.1468549999991,NaN,215,0.12,-1.91921272143954,-1.60206820387418,NaN,NaN,10,225,1,data01_direction4priors,11,1,1
9,17.1635799999931,NaN,225,0.12,-1.60138774396834,-1.91978053263074,NaN,NaN,10,225,1,data01_direction4priors,11,1,1
10,19.4967230000184,NaN,225,0.12,-1.40172922568908,-2.07006163624397,NaN,NaN,10,225,1,data01_direction4priors,11,1,1
11,21.9966410000343,NaN,225,0.06,-1.60138774396834,-1.91978053263074,NaN,NaN,10,225,1,data01_direction4priors,11,1,1
12,24.0801520000095,NaN,235,0.12,-1.7136238429726,-1.82030033917368,NaN,NaN,10,225,1,data01_direction4priors,11,1,1
13,26.0797740000417,NaN,225,0.24,-1.81969274663383,-1.71426903018407,NaN,NaN,10,225,1,data01_direction4priors,11,1,1
14,28.2297160000307,NaN,225,0.06,-1.63946052809175,-1.88737096958417,NaN,NaN,10,225,1,data01_direction4priors,11,1,1
15,30.3129680000129,NaN,215,0.06,-1.88678966366056,-1.6401294964434,NaN,NaN,10,225,1,data01_direction4priors,11,1,1
16,32.3961830000044,NaN,225,0.12,-1.81969274663383,-1.71426903018407,NaN,NaN,10,225,1,data01_direction4priors,11,1,1
17,34.4628610000364,NaN,245,0.06,-1.63946052809175,-1.88737096958417,NaN,NaN,10,225,1,data01_direction4priors,11,1,1
18,36.5960020000348,NaN,225,0.06,-1.7136238429726,-1.82030033917368,NaN,NaN,10,225,1,data01_direction4priors,11,1,1
19,38.5793030000059,NaN,225,0.12,-1.81969274663383,-1.71426903018407,NaN,NaN,10,225,1,data01_direction4priors,11,1,1
20,40.7124889999977,NaN,235,0.06,-1.52333605929438,-1.98228334262624,NaN,NaN,10,225,1,data01_direction4priors,11,1,1
21,42.7961230000365,NaN,215,0.12,-1.63946052809175,-1.88737096958417,NaN,NaN,10,225,1,data01_direction4priors,11,1,1
22,44.77895300003,NaN,215,0.06,-1.85361191517298,-1.67753475908213,NaN,NaN,10,225,1,data01_direction4priors,11,1,1
23,46.7122519999975,NaN,215,0.24,-1.60138774396834,-1.91978053263074,NaN,NaN,10,225,1,data01_direction4priors,11,1,1
24,48.7455440000049,NaN,215,0.12,-1.60138774396834,-1.91978053263074,NaN,NaN,10,225,1,data01_direction4priors,11,1,1
25,50.8287739999942,NaN,225,0.12,-1.56267442609889,-1.951422209061,NaN,NaN,10,225,1,data01_direction4priors,11,1,1
26,52.728581000003,NaN,235,0.06,-1.60138774396834,-1.91978053263074,NaN,NaN,10,225,1,data01_direction4priors,11,1,1
27,54.6452920000302,NaN,235,0.06,-1.48338837837703,-2.01235158928452,NaN,NaN,10,225,1,data01_direction4priors,11,1,1
28,56.6952070000116,NaN,225,0.06,-1.67687754986311,-1.85420648331438,NaN,NaN,10,225,1,data01_direction4priors,11,1,1
29,58.6449790000333,NaN,225,0.06,-1.67687754986311,-1.85420648331438,NaN,NaN,10,225,1,data01_direction4priors,11,1,1
30,60.6116200000397,NaN,235,0.24,-1.52333605929438,-1.98228334262624,NaN,NaN,10,225,1,data01_direction4priors,11,1,1
31,62.5115750000114,NaN,225,0.06,-0.962530205304035,-2.3072788309776,NaN,NaN,10,225,1,data01_direction4priors,11,1,1
32,64.3948830000008,NaN,225,0.06,-1.60138774396834,-1.91978053263074,NaN,NaN,10,225,1,data01_direction4priors,11,1,1
33,66.294728000008,NaN,225,0.06,-1.74968470939291,-1.78566609916766,NaN,NaN,10,225,1,data01_direction4priors,11,1,1
34,68.3113580000354,NaN,215,0.12,-1.78504572525827,-1.75031761653054,NaN,NaN,10,225,1,data01_direction4priors,11,1,1
35,70.3612560000038,NaN,245,0.06,-1.88678966366056,-1.6401294964434,NaN,NaN,10,225,1,data01_direction4priors,11,1,1
36,72.3778170000296,NaN,225,0.06,-1.63946052809175,-1.88737096958417,NaN,NaN,10,225,1,data01_direction4priors,11,1,1
37,74.2945080000209,NaN,225,0.06,-1.67687754986311,-1.85420648331438,NaN,NaN,10,225,1,data01_direction4priors,11,1,1
38,76.6610260000452,NaN,215,0.06,-1.67687754986311,-1.85420648331438,NaN,NaN,10,225,1,data01_direction4priors,11,1,1
39,78.7275980000268,NaN,235,0.06,-1.78504572525827,-1.75031761653054,NaN,NaN,10,225,1,data01_direction4priors,11,1,1
40,80.8108089999878,NaN,235,0.06,-1.78504572525827,-1.75031761653054,NaN,NaN,10,225,1,data01_direction4priors,11,1,1
41,82.8274390000151,NaN,245,0.12,-1.7136238429726,-1.82030033917368,NaN,NaN,10,225,1,data01_direction4priors,11,1,1
42,84.7439190000296,NaN,235,0.24,-1.44284736188658,-2.04161492213809,NaN,NaN,10,225,1,data01_direction4priors,11,1,1
43,86.6939710000297,NaN,235,0.06,-2.04110330571897,-1.44357102193938,NaN,NaN,10,225,1,data01_direction4priors,11,1,1
44,88.8604010000126,NaN,225,0.12,-1.52333605929438,-1.98228334262624,NaN,NaN,10,225,1,data01_direction4priors,11,1,1
45,90.7603070000187,NaN,225,0.24,-1.52333605929438,-1.98228334262624,NaN,NaN,10,225,1,data01_direction4priors,11,1,1
46,92.6269220000249,NaN,245,0.12,-1.36005041649079,-2.09768035329581,NaN,NaN,10,225,1,data01_direction4priors,11,1,1
47,94.6101710000075,NaN,235,0.24,-1.48338837837703,-2.01235158928452,NaN,NaN,10,225,1,data01_direction4priors,11,1,1
48,96.4601790000452,NaN,235,0.06,-1.48338837837703,-2.01235158928452,NaN,NaN,10,225,1,data01_direction4priors,11,1,1
49,98.5600790000171,NaN,225,0.06,-1.36005041649079,-2.09768035329581,NaN,NaN,10,225,1,data01_direction4priors,11,1,1
50,100.543298000004,NaN,215,0.24,-1.52333605929438,-1.98228334262624,NaN,NaN,10,225,1,data01_direction4priors,11,1,1
51,102.476664000016,NaN,215,0.06,-1.88678966366056,-1.6401294964434,NaN,NaN,10,225,1,data01_direction4priors,11,1,1
52,104.543494000041,NaN,215,0.06,-1.60138774396834,-1.91978053263074,NaN,NaN,10,225,1,data01_direction4priors,11,1,1
53,106.576365000044,NaN,215,0.24,-1.74968470939291,-1.78566609916766,NaN,NaN,10,225,1,data01_direction4priors,11,1,1
54,108.592978000001,NaN,225,0.12,-1.23181774178337,-2.17545973325817,NaN,NaN,10,225,1,data01_direction4priors,11,1,1
55,110.559516000038,NaN,215,0.12,-1.78504572525827,-1.75031761653054,NaN,NaN,10,225,1,data01_direction4priors,11,1,1
56,112.492766999989,NaN,245,0.12,-0.962530205304035,-2.3072788309776,NaN,NaN,10,225,1,data01_direction4priors,11,1,1
57,114.442688999989,NaN,235,0.06,-1.60138774396834,-1.91978053263074,NaN,NaN,10,225,1,data01_direction4priors,11,1,1
58,116.442718000035,NaN,235,0.24,-1.31782760525965,-2.12446002617503,NaN,NaN,10,225,1,data01_direction4priors,11,1,1
59,118.375881000014,NaN,225,0.06,-1.81969274663383,-1.71426903018407,NaN,NaN,10,225,1,data01_direction4priors,11,1,1
60,120.375729000021,NaN,235,0.24,-1.56267442609889,-1.951422209061,NaN,NaN,10,225,1,data01_direction4priors,11,1,1
61,122.309081999992,NaN,215,0.06,-1.56267442609889,-1.951422209061,NaN,NaN,10,225,1,data01_direction4priors,11,1,1
62,124.175662000023,NaN,225,0.12,-1.31782760525965,-2.12446002617503,NaN,NaN,10,225,1,data01_direction4priors,11,1,1
63,125.975584,NaN,225,0.12,-1.56267442609889,-1.951422209061,NaN,NaN,10,225,1,data01_direction4priors,11,1,1
64,127.75887000002,NaN,215,0.06,-1.31782760525965,-2.12446002617503,NaN,NaN,10,225,1,data01_direction4priors,11,1,1
65,129.525361000036,NaN,235,0.12,-1.143837232694,-2.22297916884143,NaN,NaN,10,225,1,data01_direction4priors,11,1,1
66,131.225283000036,NaN,235,0.12,-1.18806509233682,-2.19965936825925,NaN,NaN,10,225,1,data01_direction4priors,11,1,1
67,132.975234000012,NaN,215,0.06,-1.40172922568908,-2.07006163624397,NaN,NaN,10,225,1,data01_direction4priors,11,1,1
68,134.808567000029,NaN,215,0.24,-1.48338837837703,-2.01235158928452,NaN,NaN,10,225,1,data01_direction4priors,11,1,1
69,136.558443000016,NaN,225,0.06,-1.40172922568908,-2.07006163624397,NaN,NaN,10,225,1,data01_direction4priors,11,1,1
70,138.358330000017,NaN,235,0.12,-1.52333605929438,-1.98228334262624,NaN,NaN,10,225,1,data01_direction4priors,11,1,1
71,140.158335000044,NaN,235,0.06,-1.48338837837703,-2.01235158928452,NaN,NaN,10,225,1,data01_direction4priors,11,1,1
72,141.941573999997,NaN,205,0.12,-0.962530205304035,-2.3072788309776,NaN,NaN,10,225,1,data01_direction4priors,11,1,1
73,143.79151900002,NaN,225,0.06,-1.23181774178337,-2.17545973325817,NaN,NaN,10,225,1,data01_direction4priors,11,1,1
74,145.891540000041,NaN,225,0.06,-1.18806509233682,-2.19965936825925,NaN,NaN,10,225,1,data01_direction4priors,11,1,1
75,147.724634000042,NaN,225,0.12,-1.23181774178337,-2.17545973325817,NaN,NaN,10,225,1,data01_direction4priors,11,1,1
76,149.574568999989,NaN,225,0.12,-1.44284736188658,-2.04161492213809,NaN,NaN,10,225,1,data01_direction4priors,11,1,1
77,151.441220000037,NaN,245,0.06,-1.56267442609889,-1.951422209061,NaN,NaN,10,225,1,data01_direction4priors,11,1,1
78,153.307671000017,NaN,225,0.06,-1.78504572525827,-1.75031761653054,NaN,NaN,10,225,1,data01_direction4priors,11,1,1
79,155.207643000002,NaN,235,0.06,-1.74968470939291,-1.78566609916766,NaN,NaN,10,225,1,data01_direction4priors,11,1,1
80,157.157578999992,NaN,205,0.12,-2.19923806200235,-1.18884479501747,NaN,NaN,10,225,1,data01_direction4priors,11,1,1
81,159.274061000033,NaN,205,0.06,-1.7136238429726,-1.82030033917368,NaN,NaN,10,225,1,data01_direction4priors,11,1,1
82,161.190768000029,NaN,215,0.06,-2.12399272394532,-1.31858064168535,NaN,NaN,10,225,1,data01_direction4priors,11,1,1
83,163.240638000017,NaN,205,0.12,-1.7136238429726,-1.82030033917368,NaN,NaN,10,225,1,data01_direction4priors,11,1,1
84,165.207270000014,NaN,235,0.12,-1.60138774396834,-1.91978053263074,NaN,NaN,10,225,1,data01_direction4priors,11,1,1
85,167.124086000025,NaN,245,0.24,-1.40172922568908,-2.07006163624397,NaN,NaN,10,225,1,data01_direction4priors,11,1,1
86,168.973725999997,NaN,235,0.12,-2.222573539857,-1.14462520500272,NaN,NaN,10,225,1,data01_direction4priors,11,1,1
87,170.923733000003,NaN,235,0.06,-1.7136238429726,-1.82030033917368,NaN,NaN,10,225,1,data01_direction4priors,11,1,1
88,172.823504000029,NaN,205,0.06,-1.40172922568908,-2.07006163624397,NaN,NaN,10,225,1,data01_direction4priors,11,1,1
89,174.690246000013,NaN,225,0.12,-1.74968470939291,-1.78566609916766,NaN,NaN,10,225,1,data01_direction4priors,11,1,1
90,176.556787000038,NaN,225,0.06,-1.7136238429726,-1.82030033917368,NaN,NaN,10,225,1,data01_direction4priors,11,1,1
91,178.42334899999,NaN,235,0.06,-1.52333605929438,-1.98228334262624,NaN,NaN,10,225,1,data01_direction4priors,11,1,1
92,180.356617000012,NaN,225,0.06,-1.36005041649079,-2.09768035329581,NaN,NaN,10,225,1,data01_direction4priors,11,1,1
93,182.289930000028,NaN,235,0.24,-1.48338837837703,-2.01235158928452,NaN,NaN,10,225,1,data01_direction4priors,11,1,1
94,184.073101999995,NaN,235,0.06,-1.23181774178337,-2.17545973325817,NaN,NaN,10,225,1,data01_direction4priors,11,1,1
95,185.923031000013,NaN,215,0.12,-1.63946052809175,-1.88737096958417,NaN,NaN,10,225,1,data01_direction4priors,11,1,1
96,187.789732000034,NaN,225,0.06,-1.56267442609889,-1.951422209061,NaN,NaN,10,225,1,data01_direction4priors,11,1,1
97,189.639494000003,NaN,225,0.06,-1.143837232694,-2.22297916884143,NaN,NaN,10,225,1,data01_direction4priors,11,1,1
98,191.489505000005,NaN,225,0.06,-1.63946052809175,-1.88737096958417,NaN,NaN,10,225,1,data01_direction4priors,11,1,1
99,193.306036000024,NaN,235,0.12,-1.44284736188658,-2.04161492213809,NaN,NaN,10,225,1,data01_direction4priors,11,1,1
100,195.189223000023,NaN,225,0.06,-1.67687754986311,-1.85420648331438,NaN,NaN,10,225,1,data01_direction4priors,11,1,1
101,197.172584000044,NaN,225,0.24,-1.31782760525965,-2.12446002617503,NaN,NaN,10,225,1,data01_direction4priors,11,1,1
102,199.005746999988,NaN,235,0.06,-1.78504572525827,-1.75031761653054,NaN,NaN,10,225,1,data01_direction4priors,11,1,1
103,200.922411000007,NaN,215,0.06,-1.78504572525827,-1.75031761653054,NaN,NaN,10,225,1,data01_direction4priors,11,1,1
104,203.038903000008,NaN,205,0.06,-1.85361191517298,-1.67753475908213,NaN,NaN,10,225,1,data01_direction4priors,11,1,1
105,204.955531000043,NaN,225,0.24,-1.44284736188658,-2.04161492213809,NaN,NaN,10,225,1,data01_direction4priors,11,1,1
106,206.855433000019,NaN,215,0.06,-1.27507768055722,-2.15038994336953,NaN,NaN,10,225,1,data01_direction4priors,11,1,1
107,208.738690000027,NaN,225,0.06,-1.78504572525827,-1.75031761653054,NaN,NaN,10,225,1,data01_direction4priors,11,1,1
108,210.622047000041,NaN,225,0.12,-1.78504572525827,-1.75031761653054,NaN,NaN,10,225,1,data01_direction4priors,11,1,1
109,212.605151000025,NaN,225,0.12,-2.04110330571897,-1.44357102193938,NaN,NaN,10,225,1,data01_direction4priors,11,1,1
110,214.70515600004,NaN,215,0.12,-1.98174319676199,-1.52403868129636,NaN,NaN,10,225,1,data01_direction4priors,11,1,1
111,216.671674999991,NaN,235,0.12,-1.48338837837703,-2.01235158928452,NaN,NaN,10,225,1,data01_direction4priors,11,1,1
112,218.538253000006,NaN,225,0.06,-1.60138774396834,-1.91978053263074,NaN,NaN,10,225,1,data01_direction4priors,11,1,1
113,220.404924000031,NaN,215,0.06,-1.63946052809175,-1.88737096958417,NaN,NaN,10,225,1,data01_direction4priors,11,1,1
114,222.221549000009,NaN,225,0.06,-1.78504572525827,-1.75031761653054,NaN,NaN,10,225,1,data01_direction4priors,11,1,1
115,224.10479100002,NaN,235,0.12,-1.09915185340906,-2.2454098073954,NaN,NaN,10,225,1,data01_direction4priors,11,1,1
116,225.988086000027,NaN,225,0.06,-1.85361191517298,-1.67753475908213,NaN,NaN,10,225,1,data01_direction4priors,11,1,1
117,227.921254999994,NaN,245,0.06,-1.143837232694,-2.22297916884143,NaN,NaN,10,225,1,data01_direction4priors,11,1,1
118,229.771207000013,NaN,235,0.06,-1.31782760525965,-2.12446002617503,NaN,NaN,10,225,1,data01_direction4priors,11,1,1
119,231.637947999989,NaN,215,0.06,-1.88678966366056,-1.6401294964434,NaN,NaN,10,225,1,data01_direction4priors,11,1,1
120,233.604401000019,NaN,225,0.06,-1.88678966366056,-1.6401294964434,NaN,NaN,10,225,1,data01_direction4priors,11,1,1
121,235.55429900001,NaN,205,0.06,-1.98174319676199,-1.52403868129636,NaN,NaN,10,225,1,data01_direction4priors,11,1,1
122,237.504169000022,NaN,235,0.12,-1.78504572525827,-1.75031761653054,NaN,NaN,10,225,1,data01_direction4priors,11,1,1
123,239.404090000025,NaN,215,0.06,-1.60138774396834,-1.91978053263074,NaN,NaN,10,225,1,data01_direction4priors,11,1,1
124,241.303990999993,NaN,235,0.24,-1.143837232694,-2.22297916884143,NaN,NaN,10,225,1,data01_direction4priors,11,1,1
125,243.187330000044,NaN,235,0.06,-2.39158672113016,-0.728225895800115,NaN,NaN,10,225,1,data01_direction4priors,11,1,1
126,245.303807999997,NaN,245,0.06,-1.48338837837703,-2.01235158928452,NaN,NaN,10,225,1,data01_direction4priors,11,1,1
127,247.153781000001,NaN,215,0.12,-1.36005041649079,-2.09768035329581,NaN,NaN,10,225,1,data01_direction4priors,11,1,1
128,249.070308000024,NaN,225,0.12,-1.63946052809175,-1.88737096958417,NaN,NaN,10,225,1,data01_direction4priors,11,1,1
129,250.93703500001,NaN,215,0.06,-1.85361191517298,-1.67753475908213,NaN,NaN,10,225,1,data01_direction4priors,11,1,1
130,253.036902000022,NaN,225,0.24,-1.36005041649079,-2.09768035329581,NaN,NaN,10,225,1,data01_direction4priors,11,1,1
131,254.970030000026,NaN,235,0.12,-1.74968470939291,-1.78566609916766,NaN,NaN,10,225,1,data01_direction4priors,11,1,1
132,256.903416000016,NaN,215,0.12,-1.74968470939291,-1.78566609916766,NaN,NaN,10,225,1,data01_direction4priors,11,1,1
133,258.836636000022,NaN,235,0.06,-1.78504572525827,-1.75031761653054,NaN,NaN,10,225,1,data01_direction4priors,11,1,1
134,260.769789000042,NaN,225,0.12,-1.88678966366056,-1.6401294964434,NaN,NaN,10,225,1,data01_direction4priors,11,1,1
135,262.719803000044,NaN,205,0.06,-1.56267442609889,-1.951422209061,NaN,NaN,10,225,1,data01_direction4priors,11,1,1
136,264.58633900003,NaN,235,0.06,-1.78504572525827,-1.75031761653054,NaN,NaN,10,225,1,data01_direction4priors,11,1,1
137,266.519626000023,NaN,245,0.12,-1.98174319676199,-1.52403868129636,NaN,NaN,10,225,1,data01_direction4priors,11,1,1
138,268.436183000042,NaN,215,0.06,-1.36005041649079,-2.09768035329581,NaN,NaN,10,225,1,data01_direction4priors,11,1,1
139,270.302739000006,NaN,225,0.06,-1.63946052809175,-1.88737096958417,NaN,NaN,10,225,1,data01_direction4priors,11,1,1
140,272.152688000002,NaN,215,0.12,-1.74968470939291,-1.78566609916766,NaN,NaN,10,225,1,data01_direction4priors,11,1,1
141,274.08598600002,NaN,245,0.06,-1.56267442609889,-1.951422209061,NaN,NaN,10,225,1,data01_direction4priors,11,1,1
142,276.152556999994,NaN,225,0.06,-1.48338837837703,-2.01235158928452,NaN,NaN,10,225,1,data01_direction4priors,11,1,1
143,278.002442000026,NaN,235,0.12,-1.48338837837703,-2.01235158928452,NaN,NaN,10,225,1,data01_direction4priors,11,1,1
144,279.835722999997,NaN,215,0.06,-2.06956459438092,-1.40246297266093,NaN,NaN,10,225,1,data01_direction4priors,11,1,1
145,281.868934000027,NaN,225,0.06,-1.85361191517298,-1.67753475908213,NaN,NaN,10,225,1,data01_direction4priors,11,1,1
146,283.818933000031,NaN,225,0.06,-1.18806509233682,-2.19965936825925,NaN,NaN,10,225,1,data01_direction4priors,11,1,1
147,285.735401000013,NaN,225,0.12,-1.60138774396834,-1.91978053263074,NaN,NaN,10,225,1,data01_direction4priors,11,1,1
148,287.635675000027,NaN,225,0.06,-2.26656851792828,-1.05483039088585,NaN,NaN,10,225,1,data01_direction4priors,11,1,1
149,289.752024999994,NaN,225,0.12,-1.78504572525827,-1.75031761653054,NaN,NaN,10,225,1,data01_direction4priors,11,1,1
150,291.635198000004,NaN,215,0.24,-1.85361191517298,-1.67753475908213,NaN,NaN,10,225,1,data01_direction4priors,11,1,1
151,293.551887000038,NaN,215,0.06,-1.88678966366056,-1.6401294964434,NaN,NaN,10,225,1,data01_direction4priors,11,1,1
152,295.485071000003,NaN,215,0.06,-1.81969274663383,-1.71426903018407,NaN,NaN,10,225,1,data01_direction4priors,11,1,1
153,297.368356999999,NaN,215,0.12,-1.74968470939291,-1.78566609916766,NaN,NaN,10,225,1,data01_direction4priors,11,1,1
154,299.334934000042,NaN,235,0.12,-1.74968470939291,-1.78566609916766,NaN,NaN,10,225,1,data01_direction4priors,11,1,1
155,301.284832000034,NaN,205,0.12,-1.74968470939291,-1.78566609916766,NaN,NaN,10,225,1,data01_direction4priors,11,1,1
156,303.151373000001,NaN,215,0.24,-1.7136238429726,-1.82030033917368,NaN,NaN,10,225,1,data01_direction4priors,11,1,1
157,305.034713000001,NaN,225,0.06,-1.67687754986311,-1.85420648331438,NaN,NaN,10,225,1,data01_direction4priors,11,1,1
158,306.851293000043,NaN,225,0.06,-1.67687754986311,-1.85420648331438,NaN,NaN,10,225,1,data01_direction4priors,11,1,1
159,308.734496999998,NaN,215,0.06,-1.7136238429726,-1.82030033917368,NaN,NaN,10,225,1,data01_direction4priors,11,1,1
160,310.58439199999,NaN,225,0.24,-1.81969274663383,-1.71426903018407,NaN,NaN,10,225,1,data01_direction4priors,11,1,1
161,312.451029999997,NaN,225,0.06,-2.06956459438092,-1.40246297266093,NaN,NaN,10,225,1,data01_direction4priors,11,1,1
162,314.267659000005,NaN,235,0.06,-1.48338837837703,-2.01235158928452,NaN,NaN,10,225,1,data01_direction4priors,11,1,1
163,316.067546000006,NaN,225,0.12,-1.56267442609889,-1.951422209061,NaN,NaN,10,225,1,data01_direction4priors,11,1,1
164,317.900729000045,NaN,225,0.24,-1.67687754986311,-1.85420648331438,NaN,NaN,10,225,1,data01_direction4priors,11,1,1
165,319.817379000015,NaN,225,0.24,-1.63946052809175,-1.88737096958417,NaN,NaN,10,225,1,data01_direction4priors,11,1,1
166,321.684033000027,NaN,205,0.24,-1.67687754986311,-1.85420648331438,NaN,NaN,10,225,1,data01_direction4priors,11,1,1
167,323.700508000038,NaN,225,0.24,-1.23181774178337,-2.17545973325817,NaN,NaN,10,225,1,data01_direction4priors,11,1,1
168,325.717076000001,NaN,205,0.06,-2.30693746987971,-0.963348073162045,NaN,NaN,10,225,1,data01_direction4priors,11,1,1
169,327.80038900004,NaN,225,0.12,-2.24502001792963,-1.09994778016743,NaN,NaN,10,225,1,data01_direction4priors,11,1,1
170,329.916978000023,NaN,215,0.12,-1.91921272143954,-1.60206820387418,NaN,NaN,10,225,1,data01_direction4priors,11,1,1
171,331.983567000018,NaN,235,0.24,-0.869493739570494,-2.34392419605407,NaN,NaN,10,225,1,data01_direction4priors,11,1,1
172,334.133513000037,NaN,215,0.12,-2.04110330571897,-1.44357102193938,NaN,NaN,10,225,1,data01_direction4priors,11,1,1
173,336.083352999995,NaN,215,0.06,-1.67687754986311,-1.85420648331438,NaN,NaN,10,225,1,data01_direction4priors,11,1,1
174,337.966646999994,NaN,225,0.24,-1.67687754986311,-1.85420648331438,NaN,NaN,10,225,1,data01_direction4priors,11,1,1
175,339.849817999988,NaN,225,0.12,-1.44284736188658,-2.04161492213809,NaN,NaN,10,225,1,data01_direction4priors,11,1,1
176,341.983089000045,NaN,215,0.06,-1.74968470939291,-1.78566609916766,NaN,NaN,10,225,1,data01_direction4priors,11,1,1
177,343.933019999997,NaN,225,0.24,-1.7136238429726,-1.82030033917368,NaN,NaN,10,225,1,data01_direction4priors,11,1,1
178,345.832936000021,NaN,225,0.06,-1.31782760525965,-2.12446002617503,NaN,NaN,10,225,1,data01_direction4priors,11,1,1
179,347.999438000028,NaN,215,0.06,-2.12399272394532,-1.31858064168535,NaN,NaN,10,225,1,data01_direction4priors,11,1,1
180,350.016065000033,NaN,215,0.06,-1.88678966366056,-1.6401294964434,NaN,NaN,10,225,1,data01_direction4priors,11,1,1
181,351.966063000029,NaN,225,0.12,-1.81969274663383,-1.71426903018407,NaN,NaN,10,225,1,data01_direction4priors,11,1,1
182,353.86598500004,NaN,235,0.12,-1.63946052809175,-1.88737096958417,NaN,NaN,10,225,1,data01_direction4priors,11,1,1
183,355.765801000001,NaN,225,0.06,-1.56267442609889,-1.951422209061,NaN,NaN,10,225,1,data01_direction4priors,11,1,1
184,357.665848000033,NaN,235,0.12,-1.27507768055722,-2.15038994336953,NaN,NaN,10,225,1,data01_direction4priors,11,1,1
185,359.798945999995,NaN,235,0.12,-1.36005041649079,-2.09768035329581,NaN,NaN,10,225,1,data01_direction4priors,11,1,1
186,361.665533000021,NaN,225,0.06,-1.52333605929438,-1.98228334262624,NaN,NaN,10,225,1,data01_direction4priors,11,1,1
187,363.598880000005,NaN,215,0.12,-1.40172922568908,-2.07006163624397,NaN,NaN,10,225,1,data01_direction4priors,11,1,1
188,365.432214000029,NaN,235,0.12,-1.18806509233682,-2.19965936825925,NaN,NaN,10,225,1,data01_direction4priors,11,1,1
189,367.281974000041,NaN,215,0.12,-1.36005041649079,-2.09768035329581,NaN,NaN,10,225,1,data01_direction4priors,11,1,1
190,369.131975000026,NaN,245,0.24,-1.09915185340906,-2.2454098073954,NaN,NaN,10,225,1,data01_direction4priors,11,1,1
191,370.982107000018,NaN,235,0.12,-1.60138774396834,-1.91978053263074,NaN,NaN,10,225,1,data01_direction4priors,11,1,1
192,372.931770000025,NaN,215,0.06,-1.18806509233682,-2.19965936825925,NaN,NaN,10,225,1,data01_direction4priors,11,1,1
193,374.765056000033,NaN,235,0.06,-1.09915185340906,-2.2454098073954,NaN,NaN,10,225,1,data01_direction4priors,11,1,1
194,376.714919999999,NaN,235,0.06,-1.00848020598906,-2.28756806983492,NaN,NaN,10,225,1,data01_direction4priors,11,1,1
195,378.631542999996,NaN,225,0.24,-1.23181774178337,-2.17545973325817,NaN,NaN,10,225,1,data01_direction4priors,11,1,1
196,380.481529000041,NaN,225,0.06,-1.27507768055722,-2.15038994336953,NaN,NaN,10,225,1,data01_direction4priors,11,1,1
197,382.331422000017,NaN,215,0.12,-1.36005041649079,-2.09768035329581,NaN,NaN,10,225,1,data01_direction4priors,11,1,1
198,384.16492000001,NaN,225,0.12,-2.26656851792828,-1.05483039088585,NaN,NaN,10,225,1,data01_direction4priors,11,1,1
199,386.447944000014,NaN,225,0.06,-1.60138774396834,-1.91978053263074,NaN,NaN,10,225,1,data01_direction4priors,11,1,1
200,388.514542000019,NaN,235,0.06,-1.95086811971909,-1.56336610538405,NaN,NaN,10,225,1,data01_direction4priors,11,1,1
201,390.614361000014,NaN,225,0.12,-1.60138774396834,-1.91978053263074,NaN,NaN,10,225,1,data01_direction4priors,11,1,1
202,392.580967999995,NaN,225,0.06,-1.81969274663383,-1.71426903018407,NaN,NaN,10,225,1,data01_direction4priors,11,1,1
203,394.580939000007,NaN,215,0.12,-1.56267442609889,-1.951422209061,NaN,NaN,10,225,1,data01_direction4priors,11,1,1
204,396.530846000009,NaN,225,0.12,-1.52333605929438,-1.98228334262624,NaN,NaN,10,225,1,data01_direction4priors,11,1,1
205,398.41399000003,NaN,225,0.12,-1.74968470939291,-1.78566609916766,NaN,NaN,10,225,1,data01_direction4priors,11,1,1
206,400.380651000014,NaN,215,0.12,-1.67687754986311,-1.85420648331438,NaN,NaN,10,225,1,data01_direction4priors,11,1,1
207,402.263975000009,NaN,235,0.06,-1.60138774396834,-1.91978053263074,NaN,NaN,10,225,1,data01_direction4priors,11,1,1
208,404.130458,NaN,215,0.24,-1.52333605929438,-1.98228334262624,NaN,NaN,10,225,1,data01_direction4priors,11,1,1
209,406.047040000034,NaN,215,0.06,-1.7136238429726,-1.82030033917368,NaN,NaN,10,225,1,data01_direction4priors,11,1,1
210,407.93030800001,NaN,225,0.06,-1.85361191517298,-1.67753475908213,NaN,NaN,10,225,1,data01_direction4priors,11,1,1
211,409.763635000039,NaN,235,0.06,-1.60138774396834,-1.91978053263074,NaN,NaN,10,225,1,data01_direction4priors,11,1,1
212,411.613408000034,NaN,225,0.12,-1.52333605929438,-1.98228334262624,NaN,NaN,10,225,1,data01_direction4priors,11,1,1
213,413.480177999998,NaN,225,0.24,-1.48338837837703,-2.01235158928452,NaN,NaN,10,225,1,data01_direction4priors,11,1,1
1,0,NaN,255,0.06,-2.32574177478994,-0.917019736427161,NaN,NaN,80,225,1,data01_direction4priors,11,1,2
2,2.61376199999359,NaN,235,0.06,-2.06956459438092,-1.40246297266093,NaN,NaN,80,225,1,data01_direction4priors,11,1,2
3,4.7634459999972,NaN,235,0.12,-1.91921272143954,-1.60206820387418,NaN,NaN,80,225,1,data01_direction4priors,11,1,2
4,6.81342500000028,NaN,185,0.06,-2.06956459438092,-1.40246297266093,NaN,NaN,80,225,1,data01_direction4priors,11,1,2
5,9.11331000004429,NaN,335,0.06,-2.4999755288269,0.0110614314928706,NaN,NaN,80,225,1,data01_direction4priors,11,1,2
6,11.3131710000453,NaN,155,0.12,-2.18863179649995,1.20825943379285,NaN,NaN,80,225,1,data01_direction4priors,11,1,2
7,13.546490000037,NaN,165,0.12,-2.21235766242683,1.16424807214841,NaN,NaN,80,225,1,data01_direction4priors,11,1,2
8,15.7963389999932,NaN,215,0.06,-2.4479448940319,0.507509404625312,NaN,NaN,80,225,1,data01_direction4priors,11,1,2
9,18.4628580000135,NaN,265,0.06,-0.0880340807036371,-2.49844951932887,NaN,NaN,80,225,1,data01_direction4priors,11,1,2
10,20.7127750000218,NaN,195,0.06,-2.30693746987971,-0.963348073162045,NaN,NaN,80,225,1,data01_direction4priors,11,1,2
11,23.2294450000045,NaN,235,0.06,-2.32574177478994,-0.917019736427161,NaN,NaN,80,225,1,data01_direction4priors,11,1,2
12,25.3459199999925,NaN,225,0.12,-2.24502001792963,-1.09994778016743,NaN,NaN,80,225,1,data01_direction4priors,11,1,2
13,27.3791659999988,NaN,255,0.06,-2.09719808479894,-1.36079395689268,NaN,NaN,80,225,1,data01_direction4priors,11,1,2
14,29.5291070000385,NaN,205,0.06,-2.12399272394532,-1.31858064168535,NaN,NaN,80,225,1,data01_direction4priors,11,1,2
15,31.6290670000017,NaN,115,0.06,-2.4999755288269,0.0110614314928706,NaN,NaN,80,225,1,data01_direction4priors,11,1,2
16,34.0622180000064,NaN,115,0.12,-0.265428136963144,2.48586964744901,NaN,NaN,80,225,1,data01_direction4priors,11,1,2
17,36.6788550000056,NaN,215,0.06,-1.83869473609109,1.69387179782618,NaN,NaN,80,225,1,data01_direction4priors,11,1,2
18,38.9787090000464,NaN,155,0.12,-2.42569183603245,0.604995137670968,NaN,NaN,80,225,1,data01_direction4priors,11,1,2
19,41.1119500000495,NaN,215,0.24,-2.46156547952264,-0.436686832893411,NaN,NaN,80,225,1,data01_direction4priors,11,1,2
20,43.2285260000499,NaN,215,0.12,-2.45760483279934,0.458452272108347,NaN,NaN,80,225,1,data01_direction4priors,11,1,2
21,46.0618090000353,NaN,235,0.24,-2.01182560294908,-1.4841016620564,NaN,NaN,80,225,1,data01_direction4priors,11,1,2
22,48.0949440000113,NaN,265,0.24,0.605855005301909,-2.42547721336454,NaN,NaN,80,225,1,data01_direction4priors,11,1,2
23,50.3949140000041,NaN,185,0.24,-2.4999755288269,0.0110614314928706,NaN,NaN,80,225,1,data01_direction4priors,11,1,2
24,52.4950220000464,NaN,185,0.12,-2.49753347577312,0.111024940408166,NaN,NaN,80,225,1,data01_direction4priors,11,1,2
25,54.7447740000207,NaN,195,0.24,-2.46980633725736,-0.387371470869251,NaN,NaN,80,225,1,data01_direction4priors,11,1,2
26,56.9280990000116,NaN,285,0.24,0.702363604766056,-2.39930935202196,NaN,NaN,80,225,1,data01_direction4priors,11,1,2
27,59.2611790000228,NaN,65,0.06,-2.44213367399653,-0.534773894587454,NaN,NaN,80,225,1,data01_direction4priors,11,1,2
28,63.5611580000259,NaN,145,0.24,-1.50573507366309,1.99568581894566,NaN,NaN,80,225,1,data01_direction4priors,11,1,2
29,65.9443310000352,NaN,245,0.12,-0.0880340807036371,-2.49844951932887,NaN,NaN,80,225,1,data01_direction4priors,11,1,2
30,68.2109090000158,NaN,285,0.12,0.750206124752747,-2.38478317051749,NaN,NaN,80,225,1,data01_direction4priors,11,1,2
31,70.8773860000074,NaN,165,0.06,-2.4739722121816,0.359807578232127,NaN,NaN,80,225,1,data01_direction4priors,11,1,2
32,73.0438600000343,NaN,235,0.12,-0.631147931702562,-2.4190188689441,NaN,NaN,80,225,1,data01_direction4priors,11,1,2
33,75.360604000045,NaN,335,0.12,1.50255472914082,-1.99808140122883,NaN,NaN,80,225,1,data01_direction4priors,11,1,2
34,77.8104230000172,NaN,275,0.24,-0.0880340807036371,-2.49844951932887,NaN,NaN,80,225,1,data01_direction4priors,11,1,2
35,80.043703000003,NaN,225,0.12,-1.81969274663383,-1.71426903018407,NaN,NaN,80,225,1,data01_direction4priors,11,1,2
36,82.076911000011,NaN,195,0.06,0.410086033821696,-2.46613654221829,NaN,NaN,80,225,1,data01_direction4priors,11,1,2
37,84.2435500000138,NaN,255,0.06,-1.7136238429726,-1.82030033917368,NaN,NaN,80,225,1,data01_direction4priors,11,1,2
38,86.3101190000307,NaN,155,0.06,2.49735348402505,-0.115002503572504,NaN,NaN,80,225,1,data01_direction4priors,11,1,2
39,89.3933120000293,NaN,75,0.12,0.233728813446206,2.48905018867941,NaN,NaN,80,225,1,data01_direction4priors,11,1,2
40,92.659691000008,NaN,295,0.06,0.891857312279872,-2.33550648351336,NaN,NaN,80,225,1,data01_direction4priors,11,1,2
41,95.3430430000299,NaN,195,0.12,-1.98174319676199,-1.52403868129636,NaN,NaN,80,225,1,data01_direction4priors,11,1,2
42,97.4428450000123,NaN,165,0.06,2.48017582423828,-0.314209931198854,NaN,NaN,80,225,1,data01_direction4priors,11,1,2
43,100.292783000041,NaN,105,0.24,-0.512274962103795,2.44695205576275,NaN,NaN,80,225,1,data01_direction4priors,11,1,2
44,102.809369000024,NaN,185,0.06,-2.4056719666972,-0.680251709771646,NaN,NaN,80,225,1,data01_direction4priors,11,1,2
45,105.492553000047,NaN,225,0.06,-2.47705930538748,-0.337901165421627,NaN,NaN,80,225,1,data01_direction4priors,11,1,2
46,107.825835000025,NaN,255,0.12,0.508377167071454,-2.44776482857328,NaN,NaN,80,225,1,data01_direction4priors,11,1,2
47,110.025699999998,NaN,305,0.12,1.20903522594,-2.18820333205948,NaN,NaN,80,225,1,data01_direction4priors,11,1,2
48,112.32559100003,NaN,275,0.06,0.557227527977475,-2.43710842640702,NaN,NaN,80,225,1,data01_direction4priors,11,1,2
49,114.558786000009,NaN,225,0.24,-1.60138774396834,-1.91978053263074,NaN,NaN,80,225,1,data01_direction4priors,11,1,2
50,116.575513000018,NaN,185,0.06,-1.09915185340906,-2.2454098073954,NaN,NaN,80,225,1,data01_direction4priors,11,1,2
51,119.058640000003,NaN,255,0.06,-1.91921272143954,-1.60206820387418,NaN,NaN,80,225,1,data01_direction4priors,11,1,2
52,121.375264000031,NaN,345,0.06,0.654240148702179,-2.41287584177598,NaN,NaN,80,225,1,data01_direction4priors,11,1,2
53,123.591760000039,NaN,315,0.24,1.65742518152534,-1.8716147487252,NaN,NaN,80,225,1,data01_direction4priors,11,1,2
54,125.891724000045,NaN,145,0.06,-1.07923905465338,2.25504835045967,NaN,NaN,80,225,1,data01_direction4priors,11,1,2
55,129.341580000008,NaN,245,0.12,-0.337023028820767,-2.4771789354111,NaN,NaN,80,225,1,data01_direction4priors,11,1,2
56,131.441427000042,NaN,175,0.12,-2.13856363422226,1.29481488344168,NaN,NaN,80,225,1,data01_direction4priors,11,1,2
57,133.674744000018,NaN,175,0.12,-2.18863179649995,1.20825943379285,NaN,NaN,80,225,1,data01_direction4priors,11,1,2
58,135.974584000011,NaN,225,0.06,1.16503227785984,-2.21194479848497,NaN,NaN,80,225,1,data01_direction4priors,11,1,2
59,138.291201000044,NaN,295,0.12,1.83599465426623,-1.69679805206919,NaN,NaN,80,225,1,data01_direction4priors,11,1,2
60,140.557673000032,NaN,355,0.06,1.73094404581812,-1.80383832708112,NaN,NaN,80,225,1,data01_direction4priors,11,1,2
61,143.307652000047,NaN,135,0.12,-0.754003305158694,2.38358532799012,NaN,NaN,80,225,1,data01_direction4priors,11,1,2
62,145.607579000003,NaN,225,0.06,1.33807305411595,-2.11176715142764,NaN,NaN,80,225,1,data01_direction4priors,11,1,2
63,147.857393000042,NaN,255,0.24,0.360684576620729,-2.47384450525653,NaN,NaN,80,225,1,data01_direction4priors,11,1,2
64,149.990717000037,NaN,225,0.06,0.605855005301909,-2.42547721336454,NaN,NaN,80,225,1,data01_direction4priors,11,1,2
65,152.340568999993,NaN,115,0.12,-1.1685536606159,2.21008650108116,NaN,NaN,80,225,1,data01_direction4priors,11,1,2
66,154.940478000033,NaN,205,0.12,-2.28721042074028,-1.00929108351213,NaN,NaN,80,225,1,data01_direction4priors,11,1,2
67,156.990533000033,NaN,205,0.06,-1.85361191517298,-1.67753475908213,NaN,NaN,80,225,1,data01_direction4priors,11,1,2
68,159.10695700004,NaN,325,0.12,1.38003797582082,-2.08458513505502,NaN,NaN,80,225,1,data01_direction4priors,11,1,2
69,161.240210000018,NaN,125,0.06,-0.942075273175742,2.31570597867494,NaN,NaN,80,225,1,data01_direction4priors,11,1,2
70,165.223381000047,NaN,115,0.06,-1.42472449906199,2.05430282620956,NaN,NaN,80,225,1,data01_direction4priors,11,1,2
71,168.323181000014,NaN,135,0.06,-1.46552288116875,2.02539938895292,NaN,NaN,80,225,1,data01_direction4priors,11,1,2
72,171.556465000031,NaN,105,0.06,-1.87220218690764,1.65676159158107,NaN,NaN,80,225,1,data01_direction4priors,11,1,2
73,173.723090000043,NaN,285,0.06,1.42145090073563,-2.05656931242248,NaN,NaN,80,225,1,data01_direction4priors,11,1,2
74,176.072892000026,NaN,185,0.06,-2.1122413644688,1.33732435042027,NaN,NaN,80,225,1,data01_direction4priors,11,1,2
75,178.439501000044,NaN,305,0.06,1.33807305411595,-2.11176715142764,NaN,NaN,80,225,1,data01_direction4priors,11,1,2
76,180.739406000008,NaN,195,0.12,-2.4999755288269,0.0110614314928706,NaN,NaN,80,225,1,data01_direction4priors,11,1,2
77,182.922615999996,NaN,135,0.12,-1.76948717102661,1.7660450593267,NaN,NaN,80,225,1,data01_direction4priors,11,1,2
78,185.089357000019,NaN,325,0.06,1.90237987872323,-1.62202059081535,NaN,NaN,80,225,1,data01_direction4priors,11,1,2
79,187.339150000014,NaN,175,0.06,-2.42569183603245,0.604995137670968,NaN,NaN,80,225,1,data01_direction4priors,11,1,2
80,189.489092000003,NaN,325,0.06,1.93443766459529,-1.58365113639183,NaN,NaN,80,225,1,data01_direction4priors,11,1,2
81,191.872291000036,NaN,305,0.06,1.46229526424257,-2.02773088948552,NaN,NaN,80,225,1,data01_direction4priors,11,1,2
82,194.722154000017,NaN,165,0.06,1.99621947532084,-1.50502751016378,NaN,NaN,80,225,1,data01_direction4priors,11,1,2
83,197.955301000038,NaN,285,0.12,1.76667223002038,-1.768860998404,NaN,NaN,80,225,1,data01_direction4priors,11,1,2
84,200.255284000013,NaN,235,0.06,-1.36005041649079,-2.09768035329581,NaN,NaN,80,225,1,data01_direction4priors,11,1,2
85,202.855161000043,NaN,265,0.12,0.702363604766056,-2.39930935202196,NaN,NaN,80,225,1,data01_direction4priors,11,1,2
86,205.038394000032,NaN,75,0.06,-2.27818959210623,1.02949122503246,NaN,NaN,80,225,1,data01_direction4priors,11,1,2
87,207.404954000027,NaN,315,0.06,2.4945541332392,-0.164923243780915,NaN,NaN,80,225,1,data01_direction4priors,11,1,2
88,210.021416000032,NaN,265,0.12,0.750206124752747,-2.38478317051749,NaN,NaN,80,225,1,data01_direction4priors,11,1,2
89,212.437982000003,NaN,295,0.24,1.65742518152534,-1.8716147487252,NaN,NaN,80,225,1,data01_direction4priors,11,1,2
90,214.671321000031,NaN,165,0.12,-1.25599882999959,2.1615889847609,NaN,NaN,80,225,1,data01_direction4priors,11,1,2
91,216.787883000041,NaN,175,0.12,-2.48859036477484,-0.238574928166907,NaN,NaN,80,225,1,data01_direction4priors,11,1,2
92,219.404352000041,NaN,275,0.06,1.80169376888595,-1.73317614891203,NaN,NaN,80,225,1,data01_direction4priors,11,1,2
93,222.604225000017,NaN,335,0.06,1.54221319218122,-1.96763270705237,NaN,NaN,80,225,1,data01_direction4priors,11,1,2
94,224.904218000011,NaN,145,0.06,-1.93695741780235,1.58056824010242,NaN,NaN,80,225,1,data01_direction4priors,11,1,2
95,227.720851000049,NaN,85,0.12,-0.115887805983918,2.49731255881682,NaN,NaN,80,225,1,data01_direction4priors,11,1,2
96,230.603935000021,NaN,185,0.12,-2.16403050703583,1.25178750777368,NaN,NaN,80,225,1,data01_direction4priors,11,1,2
97,233.270550000016,NaN,345,0.06,-1.62269488090806,1.90180475429913,NaN,NaN,80,225,1,data01_direction4priors,11,1,2
98,235.537078000023,NaN,185,0.24,-2.4739722121816,0.359807578232127,NaN,NaN,80,225,1,data01_direction4priors,11,1,2
99,238.020271000045,NaN,125,0.06,-2.21235766242683,1.16424807214841,NaN,NaN,80,225,1,data01_direction4priors,11,1,2
100,240.253633000015,NaN,205,0.24,-2.46156547952264,-0.436686832893411,NaN,NaN,80,225,1,data01_direction4priors,11,1,2
101,242.386770000041,NaN,145,0.12,-2.35317474888478,0.844137785679002,NaN,NaN,80,225,1,data01_direction4priors,11,1,2
102,244.470115000033,NaN,205,0.24,-2.17502291824568,-1.23258886296527,NaN,NaN,80,225,1,data01_direction4priors,11,1,2
103,246.453367000038,NaN,245,0.24,-1.09915185340906,-2.2454098073954,NaN,NaN,80,225,1,data01_direction4priors,11,1,2
104,248.486510000017,NaN,105,0.12,-0.0659217077024441,2.49913071455928,NaN,NaN,80,225,1,data01_direction4priors,11,1,2
105,250.769825000025,NaN,165,0.24,-2.21235766242683,1.16424807214841,NaN,NaN,80,225,1,data01_direction4priors,11,1,2
106,252.903048000007,NaN,255,0.06,-0.237692710056671,-2.48867478300921,NaN,NaN,80,225,1,data01_direction4priors,11,1,2
107,255.136262000015,NaN,335,0.12,1.96572170119367,-1.54464824262881,NaN,NaN,80,225,1,data01_direction4priors,11,1,2
108,257.40280000004,NaN,215,0.12,-2.37654487276207,-0.775908801179813,NaN,NaN,80,225,1,data01_direction4priors,11,1,2
109,260.269361000042,NaN,195,0.24,-2.36055243813172,-0.823281353384351,NaN,NaN,80,225,1,data01_direction4priors,11,1,2
110,262.902518999996,NaN,125,0.24,-0.895575832374246,2.33408310230531,NaN,NaN,80,225,1,data01_direction4priors,11,1,2
111,265.669289000041,NaN,145,0.12,-2.18863179649995,1.20825943379285,NaN,NaN,80,225,1,data01_direction4priors,11,1,2
112,267.885736000026,NaN,245,0.06,-2.41310761772694,0.653384745206232,NaN,NaN,80,225,1,data01_direction4priors,11,1,2